delay,freq,condition,trials.thisRepN,trials.thisTrialN,trials.thisN,trials.thisIndex,polygon.started,polygon_2.started,key_resp.started,polygon.stopped,key_resp.keys,key_resp.rt,sound_1.started,text.started,textbox.started,button.started,textbox.text,button.numClicks,button.timesOn,button.timesOff,sound_1.stopped,participant,session,date,expName,psychopyVersion,frameRate,
0.4,1000,exp,0,0,0,7,26.72442639991641,27.687950699939393,27.687950699939393,27.737860699999146,space,1.35151309997309,29.470727039920167,29.789955199928954,29.789955199928954,29.789955199928954,200,1,[11.332918500062078],[11.332937400089577],,293447,001,2022-11-10_22h25.28.254,intentional binding_tutorial 7,2022.2.2,59.79219818524606,
0.7,400,unexp,0,1,1,2,41.101833099965006,42.1027541999938,42.1027541999938,42.1027541999938,space,2.6473845000145957,45.46871593997348,45.77722869999707,45.77722869999707,45.77722869999707,900,2,"[11.332918500062078, 4.793035199982114]","[11.332937400089577, 4.793040700023994]",,293447,001,2022-11-10_22h25.28.254,intentional binding_tutorial 7,2022.2.2,59.79219818524606,
0.1,400,unexp,0,2,2,0,50.554665399948135,51.56780869991053,51.56780869991053,51.56780869991053,space,2.3453935000579804,54.03420513991732,54.345274399966,54.345274399966,54.345274399966,150,3,"[11.332918500062078, 4.793035199982114, 5.323812499991618]","[11.332937400089577, 4.793040700023994, 5.32382819999475]",,293447,001,2022-11-10_22h25.28.254,intentional binding_tutorial 7,2022.2.2,59.79219818524606,
0.7,1000,exp,0,3,3,11,59.65652829990722,60.650355299934745,60.650355299934745,60.666795299970545,space,0.10139009996782988,61.48331893999129,61.792552699916996,61.792552699916996,61.792552699916996,600,4,"[11.332918500062078, 4.793035199982114, 5.323812499991618, 2.82929309993051]","[11.332937400089577, 4.793040700023994, 5.32382819999475, 2.8293041000142694]",,293447,001,2022-11-10_22h25.28.254,intentional binding_tutorial 7,2022.2.2,59.79219818524606,
0.1,1000,exp,0,4,4,9,64.61201819998678,65.61618989997078,65.61618989997078,65.61618989997078,space,1.2540832000086084,66.99914223998785,67.30824789998587,67.30824789998587,67.30824789998587,100,5,"[11.332918500062078, 4.793035199982114, 5.323812499991618, 2.82929309993051, 3.8839784000301734]","[11.332937400089577, 4.793040700023994, 5.32382819999475, 2.8293041000142694, 3.8839853000827134]",,293447,001,2022-11-10_22h25.28.254,intentional binding_tutorial 7,2022.2.2,59.79219818524606,
0.4,1000,exp,0,5,5,4,71.17690570000559,72.18191169993952,72.18191169993952,72.18191169993952,space,0.7566873000469059,73.3650018400047,73.67324479995295,73.67324479995295,73.67324479995295,250,6,"[11.332918500062078, 4.793035199982114, 5.323812499991618, 2.82929309993051, 3.8839784000301734, 2.8683482999913394]","[11.332937400089577, 4.793040700023994, 5.32382819999475, 2.8293041000142694, 3.8839853000827134, 2.8683558999327943]",,293447,001,2022-11-10_22h25.28.254,intentional binding_tutorial 7,2022.2.2,59.79219818524606,
0.1,1000,exp,0,6,6,6,76.52936909999698,77.53133189992514,77.53133189992514,77.53133189992514,space,1.4323156999889761,79.08100573993288,79.39182279992383,79.39182279992383,79.39182279992383,100,7,"[11.332918500062078, 4.793035199982114, 5.323812499991618, 2.82929309993051, 3.8839784000301734, 2.8683482999913394, 4.829928799998015]","[11.332937400089577, 4.793040700023994, 5.32382819999475, 2.8293041000142694, 3.8839853000827134, 2.8683558999327943, 4.829940699972212]",,293447,001,2022-11-10_22h25.28.254,intentional binding_tutorial 7,2022.2.2,59.79219818524606,
0.4,1000,exp,0,7,7,10,84.20933889993466,85.21387699991465,85.21387699991465,85.21387699991465,space,1.9221067000180483,87.56327043992933,87.87347569991834,87.87347569991834,87.87347569991834,150,8,"[11.332918500062078, 4.793035199982114, 5.323812499991618, 2.82929309993051, 3.8839784000301734, 2.8683482999913394, 4.829928799998015, 2.4719504999229684]","[11.332937400089577, 4.793040700023994, 5.32382819999475, 2.8293041000142694, 3.8839853000827134, 2.8683558999327943, 4.829940699972212, 2.471966499928385]",,293447,001,2022-11-10_22h25.28.254,intentional binding_tutorial 7,2022.2.2,59.79219818524606,
0.1,1000,exp,0,8,8,3,90.33591459994204,91.32960389996879,91.32960389996879,91.34622710000258,space,1.2103131000185385,92.66250253999605,92.97771289991215,92.97771289991215,92.97771289991215,100,9,"[11.332918500062078, 4.793035199982114, 5.323812499991618, 2.82929309993051, 3.8839784000301734, 2.8683482999913394, 4.829928799998015, 2.4719504999229684, 3.073013399960473]","[11.332937400089577, 4.793040700023994, 5.32382819999475, 2.8293041000142694, 3.8839853000827134, 2.8683558999327943, 4.829940699972212, 2.471966499928385, 3.073025399935432]",92.97771289991215,293447,001,2022-11-10_22h25.28.254,intentional binding_tutorial 7,2022.2.2,59.79219818524606,
0.7,1000,exp,0,9,9,8,96.033717699931,97.02875129994936,97.02875129994936,97.04529479995836,space,1.3692918999586254,99.12858893997036,99.44738339993637,99.44738339993637,99.44738339993637,900,10,"[11.332918500062078, 4.793035199982114, 5.323812499991618, 2.82929309993051, 3.8839784000301734, 2.8683482999913394, 4.829928799998015, 2.4719504999229684, 3.073013399960473, 4.6050263999495655]","[11.332937400089577, 4.793040700023994, 5.32382819999475, 2.8293041000142694, 3.8839853000827134, 2.8683558999327943, 4.829940699972212, 2.471966499928385, 3.073025399935432, 4.605038299923763]",,293447,001,2022-11-10_22h25.28.254,intentional binding_tutorial 7,2022.2.2,59.79219818524606,
0.4,400,unexp,0,10,10,1,104.03213389997836,105.02783279994037,105.02783279994037,105.0446703999769,space,0.7533917999826372,106.21104863991495,106.52966989995912,106.52966989995912,106.52966989995912,900,11,"[11.332918500062078, 4.793035199982114, 5.323812499991618, 2.82929309993051, 3.8839784000301734, 2.8683482999913394, 4.829928799998015, 2.4719504999229684, 3.073013399960473, 4.6050263999495655, 5.946802399936132]","[11.332937400089577, 4.793040700023994, 5.32382819999475, 2.8293041000142694, 3.8839853000827134, 2.8683558999327943, 4.829940699972212, 2.471966499928385, 3.073025399935432, 4.605038299923763, 5.946814600029029]",106.52966989995912,293447,001,2022-11-10_22h25.28.254,intentional binding_tutorial 7,2022.2.2,59.79219818524606,
0.7,1000,exp,0,11,11,5,112.45591539994348,113.46008170000277,113.46008170000277,113.46008170000277,space,0.8242119000060484,115.00966013998259,115.32071459991857,115.32071459991857,115.32071459991857,150,12,"[11.332918500062078, 4.793035199982114, 5.323812499991618, 2.82929309993051, 3.8839784000301734, 2.8683482999913394, 4.829928799998015, 2.4719504999229684, 3.073013399960473, 4.6050263999495655, 5.946802399936132, 5.1894545999821275]","[11.332937400089577, 4.793040700023994, 5.32382819999475, 2.8293041000142694, 3.8839853000827134, 2.8683558999327943, 4.829940699972212, 2.471966499928385, 3.073025399935432, 4.605038299923763, 5.946814600029029, 5.18946619995404]",,293447,001,2022-11-10_22h25.28.254,intentional binding_tutorial 7,2022.2.2,59.79219818524606,
0.4,400,unexp,1,0,12,1,120.49656060000416,121.4923633999424,121.4923633999424,121.5092579999473,space,0.7948497999459505,122.70866213990375,123.02105829992797,123.02105829992797,123.02105829992797,200,13,"[11.332918500062078, 4.793035199982114, 5.323812499991618, 2.82929309993051, 3.8839784000301734, 2.8683482999913394, 4.829928799998015, 2.4719504999229684, 3.073013399960473, 4.6050263999495655, 5.946802399936132, 5.1894545999821275, 3.1047875999938697]","[11.332937400089577, 4.793040700023994, 5.32382819999475, 2.8293041000142694, 3.8839853000827134, 2.8683558999327943, 4.829940699972212, 2.471966499928385, 3.073025399935432, 4.605038299923763, 5.946814600029029, 5.18946619995404, 3.1047991000814363]",123.02105829992797,293447,001,2022-11-10_22h25.28.254,intentional binding_tutorial 7,2022.2.2,59.79219818524606,
0.4,1000,exp,1,1,13,10,126.11128720000852,127.1082696999656,127.1082696999656,127.1250136999879,space,0.6247344999574125,128.15816943994724,128.46777489990927,128.46777489990927,128.46777489990927,600,14,"[11.332918500062078, 4.793035199982114, 5.323812499991618, 2.82929309993051, 3.8839784000301734, 2.8683482999913394, 4.829928799998015, 2.4719504999229684, 3.073013399960473, 4.6050263999495655, 5.946802399936132, 5.1894545999821275, 3.1047875999938697, 2.8646712000481784]","[11.332937400089577, 4.793040700023994, 5.32382819999475, 2.8293041000142694, 3.8839853000827134, 2.8683558999327943, 4.829940699972212, 2.471966499928385, 3.073025399935432, 4.605038299923763, 5.946814600029029, 5.18946619995404, 3.1047991000814363, 2.864683200023137]",,293447,001,2022-11-10_22h25.28.254,intentional binding_tutorial 7,2022.2.2,59.79219818524606,
0.4,1000,exp,1,2,14,4,131.31960779998917,132.3242391999811,132.3242391999811,132.3242391999811,space,1.726896999985911,134.47401673994028,134.78311089996714,134.78311089996714,134.78311089996714,200,15,"[11.332918500062078, 4.793035199982114, 5.323812499991618, 2.82929309993051, 3.8839784000301734, 2.8683482999913394, 4.829928799998015, 2.4719504999229684, 3.073013399960473, 4.6050263999495655, 5.946802399936132, 5.1894545999821275, 3.1047875999938697, 2.8646712000481784, 2.741741899983026]","[11.332937400089577, 4.793040700023994, 5.32382819999475, 2.8293041000142694, 3.8839853000827134, 2.8683558999327943, 4.829940699972212, 2.471966499928385, 3.073025399935432, 4.605038299923763, 5.946814600029029, 5.18946619995404, 3.1047991000814363, 2.864683200023137, 2.741750300046988]",134.78311089996714,293447,001,2022-11-10_22h25.28.254,intentional binding_tutorial 7,2022.2.2,59.79219818524606,
0.4,1000,exp,1,3,15,7,137.5123934999574,138.50691559992265,138.50691559992265,138.52332639996894,space,0.8206506000133231,139.7567717399914,140.0680977999,140.0680977999,140.0680977999,200,16,"[11.332918500062078, 4.793035199982114, 5.323812499991618, 2.82929309993051, 3.8839784000301734, 2.8683482999913394, 4.829928799998015, 2.4719504999229684, 3.073013399960473, 4.6050263999495655, 5.946802399936132, 5.1894545999821275, 3.1047875999938697, 2.8646712000481784, 2.741741899983026, 4.040168400038965]","[11.332937400089577, 4.793040700023994, 5.32382819999475, 2.8293041000142694, 3.8839853000827134, 2.8683558999327943, 4.829940699972212, 2.471966499928385, 3.073025399935432, 4.605038299923763, 5.946814600029029, 5.18946619995404, 3.1047991000814363, 2.864683200023137, 2.741750300046988, 4.040180400013924]",140.0680977999,293447,001,2022-11-10_22h25.28.254,intentional binding_tutorial 7,2022.2.2,59.79219818524606,
0.7,1000,exp,1,4,16,8,144.09408640000038,145.08923769998364,145.08923769998364,145.10605309996754,space,2.866433599963784,148.67201464001556,148.9812513999641,148.9812513999641,148.9812513999641,300,17,"[11.332918500062078, 4.793035199982114, 5.323812499991618, 2.82929309993051, 3.8839784000301734, 2.8683482999913394, 4.829928799998015, 2.4719504999229684, 3.073013399960473, 4.6050263999495655, 5.946802399936132, 5.1894545999821275, 3.1047875999938697, 2.8646712000481784, 2.741741899983026, 4.040168400038965, 4.697298899991438]","[11.332937400089577, 4.793040700023994, 5.32382819999475, 2.8293041000142694, 3.8839853000827134, 2.8683558999327943, 4.829940699972212, 2.471966499928385, 3.073025399935432, 4.605038299923763, 5.946814600029029, 5.18946619995404, 3.1047991000814363, 2.864683200023137, 2.741750300046988, 4.040180400013924, 4.697311699972488]",148.9812513999641,293447,001,2022-11-10_22h25.28.254,intentional binding_tutorial 7,2022.2.2,59.79219818524606,
0.1,400,unexp,1,5,17,0,153.66647219995502,154.6714666999178,154.6714666999178,154.6714666999178,space,2.8173477000091225,157.6212006399408,157.93042959994636,157.93042959994636,157.93042959994636,300,18,"[11.332918500062078, 4.793035199982114, 5.323812499991618, 2.82929309993051, 3.8839784000301734, 2.8683482999913394, 4.829928799998015, 2.4719504999229684, 3.073013399960473, 4.6050263999495655, 5.946802399936132, 5.1894545999821275, 3.1047875999938697, 2.8646712000481784, 2.741741899983026, 4.040168400038965, 4.697298899991438, 6.321393099962734]","[11.332937400089577, 4.793040700023994, 5.32382819999475, 2.8293041000142694, 3.8839853000827134, 2.8683558999327943, 4.829940699972212, 2.471966499928385, 3.073025399935432, 4.605038299923763, 5.946814600029029, 5.18946619995404, 3.1047991000814363, 2.864683200023137, 2.741750300046988, 4.040180400013924, 4.697311699972488, 6.321404800051823]",,293447,001,2022-11-10_22h25.28.254,intentional binding_tutorial 7,2022.2.2,59.79219818524606,
0.7,1000,exp,1,6,18,11,164.24104359990451,165.2367342999205,165.2367342999205,165.2533918999834,space,0.7344182999804616,166.7030125399586,167.01467740000226,167.01467740000226,167.01467740000226,250,19,"[11.332918500062078, 4.793035199982114, 5.323812499991618, 2.82929309993051, 3.8839784000301734, 2.8683482999913394, 4.829928799998015, 2.4719504999229684, 3.073013399960473, 4.6050263999495655, 5.946802399936132, 5.1894545999821275, 3.1047875999938697, 2.8646712000481784, 2.741741899983026, 4.040168400038965, 4.697298899991438, 6.321393099962734, 3.20761909999419]","[11.332937400089577, 4.793040700023994, 5.32382819999475, 2.8293041000142694, 3.8839853000827134, 2.8683558999327943, 4.829940699972212, 2.471966499928385, 3.073025399935432, 4.605038299923763, 5.946814600029029, 5.18946619995404, 3.1047991000814363, 2.864683200023137, 2.741750300046988, 4.040180400013924, 4.697311699972488, 6.321404800051823, 3.207630299963057]",167.01467740000226,293447,001,2022-11-10_22h25.28.254,intentional binding_tutorial 7,2022.2.2,59.79219818524606,
0.7,400,unexp,1,7,19,2,170.20937199995387,171.20270699996036,171.20270699996036,171.219179000007,space,2.332748999935575,174.25200633991045,174.56214359996375,174.56214359996375,174.56214359996375,100,20,"[11.332918500062078, 4.793035199982114, 5.323812499991618, 2.82929309993051, 3.8839784000301734, 2.8683482999913394, 4.829928799998015, 2.4719504999229684, 3.073013399960473, 4.6050263999495655, 5.946802399936132, 5.1894545999821275, 3.1047875999938697, 2.8646712000481784, 2.741741899983026, 4.040168400038965, 4.697298899991438, 6.321393099962734, 3.20761909999419, 3.6712367999134585]","[11.332937400089577, 4.793040700023994, 5.32382819999475, 2.8293041000142694, 3.8839853000827134, 2.8683558999327943, 4.829940699972212, 2.471966499928385, 3.073025399935432, 4.605038299923763, 5.946814600029029, 5.18946619995404, 3.1047991000814363, 2.864683200023137, 2.741750300046988, 4.040180400013924, 4.697311699972488, 6.321404800051823, 3.207630299963057, 3.671248300001025]",,293447,001,2022-11-10_22h25.28.254,intentional binding_tutorial 7,2022.2.2,59.79219818524606,
0.1,1000,exp,1,8,20,6,178.2218370999908,179.21807399997488,179.21807399997488,179.2347769999178,space,0.05650690000038594,179.40118823999074,179.71178749995306,179.71178749995306,179.71178749995306,100,21,"[11.332918500062078, 4.793035199982114, 5.323812499991618, 2.82929309993051, 3.8839784000301734, 2.8683482999913394, 4.829928799998015, 2.4719504999229684, 3.073013399960473, 4.6050263999495655, 5.946802399936132, 5.1894545999821275, 3.1047875999938697, 2.8646712000481784, 2.741741899983026, 4.040168400038965, 4.697298899991438, 6.321393099962734, 3.20761909999419, 3.6712367999134585, 3.2784732000436634]","[11.332937400089577, 4.793040700023994, 5.32382819999475, 2.8293041000142694, 3.8839853000827134, 2.8683558999327943, 4.829940699972212, 2.471966499928385, 3.073025399935432, 4.605038299923763, 5.946814600029029, 5.18946619995404, 3.1047991000814363, 2.864683200023137, 2.741750300046988, 4.040180400013924, 4.697311699972488, 6.321404800051823, 3.207630299963057, 3.671248300001025, 3.278484100010246]",,293447,001,2022-11-10_22h25.28.254,intentional binding_tutorial 7,2022.2.2,59.79219818524606,
0.1,1000,exp,1,9,21,9,182.97714420000557,183.98420379997697,183.98420379997697,183.98420379997697,space,1.1368975999066606,185.25049273991027,185.561859899899,185.561859899899,185.561859899899,50,22,"[11.332918500062078, 4.793035199982114, 5.323812499991618, 2.82929309993051, 3.8839784000301734, 2.8683482999913394, 4.829928799998015, 2.4719504999229684, 3.073013399960473, 4.6050263999495655, 5.946802399936132, 5.1894545999821275, 3.1047875999938697, 2.8646712000481784, 2.741741899983026, 4.040168400038965, 4.697298899991438, 6.321393099962734, 3.20761909999419, 3.6712367999134585, 3.2784732000436634, 3.1724946999456733]","[11.332937400089577, 4.793040700023994, 5.32382819999475, 2.8293041000142694, 3.8839853000827134, 2.8683558999327943, 4.829940699972212, 2.471966499928385, 3.073025399935432, 4.605038299923763, 5.946814600029029, 5.18946619995404, 3.1047991000814363, 2.864683200023137, 2.741750300046988, 4.040180400013924, 4.697311699972488, 6.321404800051823, 3.207630299963057, 3.671248300001025, 3.278484100010246, 3.1725063999183476]",,293447,001,2022-11-10_22h25.28.254,intentional binding_tutorial 7,2022.2.2,59.79219818524606,
0.1,1000,exp,1,10,22,3,188.72181059990544,189.7167869999539,189.7167869999539,189.73363149992656,space,1.5089106999803334,191.35009654001334,191.65739700000267,191.65739700000267,191.65739700000267,50,23,"[11.332918500062078, 4.793035199982114, 5.323812499991618, 2.82929309993051, 3.8839784000301734, 2.8683482999913394, 4.829928799998015, 2.4719504999229684, 3.073013399960473, 4.6050263999495655, 5.946802399936132, 5.1894545999821275, 3.1047875999938697, 2.8646712000481784, 2.741741899983026, 4.040168400038965, 4.697298899991438, 6.321393099962734, 3.20761909999419, 3.6712367999134585, 3.2784732000436634, 3.1724946999456733, 2.236710699973628]","[11.332937400089577, 4.793040700023994, 5.32382819999475, 2.8293041000142694, 3.8839853000827134, 2.8683558999327943, 4.829940699972212, 2.471966499928385, 3.073025399935432, 4.605038299923763, 5.946814600029029, 5.18946619995404, 3.1047991000814363, 2.864683200023137, 2.741750300046988, 4.040180400013924, 4.697311699972488, 6.321404800051823, 3.207630299963057, 3.671248300001025, 3.278484100010246, 3.1725063999183476, 2.2367224000627175]",,293447,001,2022-11-10_22h25.28.254,intentional binding_tutorial 7,2022.2.2,59.79219818524606,
0.7,1000,exp,1,11,23,5,193.88539599999785,194.88255589990877,194.88255589990877,194.89925129991025,space,0.9721682999515906,196.5825296400115,196.8919754999224,196.8919754999224,196.8919754999224,100,24,"[11.332918500062078, 4.793035199982114, 5.323812499991618, 2.82929309993051, 3.8839784000301734, 2.8683482999913394, 4.829928799998015, 2.4719504999229684, 3.073013399960473, 4.6050263999495655, 5.946802399936132, 5.1894545999821275, 3.1047875999938697, 2.8646712000481784, 2.741741899983026, 4.040168400038965, 4.697298899991438, 6.321393099962734, 3.20761909999419, 3.6712367999134585, 3.2784732000436634, 3.1724946999456733, 2.236710699973628, 4.202336199930869]","[11.332937400089577, 4.793040700023994, 5.32382819999475, 2.8293041000142694, 3.8839853000827134, 2.8683558999327943, 4.829940699972212, 2.471966499928385, 3.073025399935432, 4.605038299923763, 5.946814600029029, 5.18946619995404, 3.1047991000814363, 2.864683200023137, 2.741750300046988, 4.040180400013924, 4.697311699972488, 6.321404800051823, 3.207630299963057, 3.671248300001025, 3.278484100010246, 3.1725063999183476, 2.2367224000627175, 4.202348199905828]",196.8919754999224,293447,001,2022-11-10_22h25.28.254,intentional binding_tutorial 7,2022.2.2,59.79219818524606,
0.1,1000,exp,2,0,24,9,201.08217629999854,202.08206169994082,202.08206169994082,202.08206169994082,space,1.9646712999092415,204.16474443995395,204.47573239996564,204.47573239996564,204.47573239996564,100,25,"[11.332918500062078, 4.793035199982114, 5.323812499991618, 2.82929309993051, 3.8839784000301734, 2.8683482999913394, 4.829928799998015, 2.4719504999229684, 3.073013399960473, 4.6050263999495655, 5.946802399936132, 5.1894545999821275, 3.1047875999938697, 2.8646712000481784, 2.741741899983026, 4.040168400038965, 4.697298899991438, 6.321393099962734, 3.20761909999419, 3.6712367999134585, 3.2784732000436634, 3.1724946999456733, 2.236710699973628, 4.202336199930869, 2.6471764999441803]","[11.332937400089577, 4.793040700023994, 5.32382819999475, 2.8293041000142694, 3.8839853000827134, 2.8683558999327943, 4.829940699972212, 2.471966499928385, 3.073025399935432, 4.605038299923763, 5.946814600029029, 5.18946619995404, 3.1047991000814363, 2.864683200023137, 2.741750300046988, 4.040180400013924, 4.697311699972488, 6.321404800051823, 3.207630299963057, 3.671248300001025, 3.278484100010246, 3.1725063999183476, 2.2367224000627175, 4.202348199905828, 2.6471883999183774]",,293447,001,2022-11-10_22h25.28.254,intentional binding_tutorial 7,2022.2.2,59.79219818524606,
0.7,1000,exp,2,1,25,11,207.10972159996163,208.11424819997046,208.11424819997046,208.11424819997046,space,1.1166341999778524,209.94728333998938,210.25700979994144,210.25700979994144,210.25700979994144,100,26,"[11.332918500062078, 4.793035199982114, 5.323812499991618, 2.82929309993051, 3.8839784000301734, 2.8683482999913394, 4.829928799998015, 2.4719504999229684, 3.073013399960473, 4.6050263999495655, 5.946802399936132, 5.1894545999821275, 3.1047875999938697, 2.8646712000481784, 2.741741899983026, 4.040168400038965, 4.697298899991438, 6.321393099962734, 3.20761909999419, 3.6712367999134585, 3.2784732000436634, 3.1724946999456733, 2.236710699973628, 4.202336199930869, 2.6471764999441803, 2.410076200030744]","[11.332937400089577, 4.793040700023994, 5.32382819999475, 2.8293041000142694, 3.8839853000827134, 2.8683558999327943, 4.829940699972212, 2.471966499928385, 3.073025399935432, 4.605038299923763, 5.946814600029029, 5.18946619995404, 3.1047991000814363, 2.864683200023137, 2.741750300046988, 4.040180400013924, 4.697311699972488, 6.321404800051823, 3.207630299963057, 3.671248300001025, 3.278484100010246, 3.1725063999183476, 2.2367224000627175, 4.202348199905828, 2.6471883999183774, 2.4100881000049412]",,293447,001,2022-11-10_22h25.28.254,intentional binding_tutorial 7,2022.2.2,59.79219818524606,
0.1,400,unexp,2,2,26,0,212.65532719995826,213.64735969994217,213.64735969994217,213.6636611999711,space,0.7027838999638334,214.4802553399466,214.78983619995415,214.78983619995415,214.78983619995415,100,27,"[11.332918500062078, 4.793035199982114, 5.323812499991618, 2.82929309993051, 3.8839784000301734, 2.8683482999913394, 4.829928799998015, 2.4719504999229684, 3.073013399960473, 4.6050263999495655, 5.946802399936132, 5.1894545999821275, 3.1047875999938697, 2.8646712000481784, 2.741741899983026, 4.040168400038965, 4.697298899991438, 6.321393099962734, 3.20761909999419, 3.6712367999134585, 3.2784732000436634, 3.1724946999456733, 2.236710699973628, 4.202336199930869, 2.6471764999441803, 2.410076200030744, 2.373349600005895]","[11.332937400089577, 4.793040700023994, 5.32382819999475, 2.8293041000142694, 3.8839853000827134, 2.8683558999327943, 4.829940699972212, 2.471966499928385, 3.073025399935432, 4.605038299923763, 5.946814600029029, 5.18946619995404, 3.1047991000814363, 2.864683200023137, 2.741750300046988, 4.040180400013924, 4.697311699972488, 6.321404800051823, 3.207630299963057, 3.671248300001025, 3.278484100010246, 3.1725063999183476, 2.2367224000627175, 4.202348199905828, 2.6471883999183774, 2.4100881000049412, 2.3733610999770463]",,293447,001,2022-11-10_22h25.28.254,intentional binding_tutorial 7,2022.2.2,59.79219818524606,
0.1,1000,exp,2,3,27,3,217.1496138999937,218.14656929997727,218.14656929997727,218.16337259998545,space,0.6765174999600276,218.94625203993638,219.26020599994808,219.26020599994808,219.26020599994808,100,28,"[11.332918500062078, 4.793035199982114, 5.323812499991618, 2.82929309993051, 3.8839784000301734, 2.8683482999913394, 4.829928799998015, 2.4719504999229684, 3.073013399960473, 4.6050263999495655, 5.946802399936132, 5.1894545999821275, 3.1047875999938697, 2.8646712000481784, 2.741741899983026, 4.040168400038965, 4.697298899991438, 6.321393099962734, 3.20761909999419, 3.6712367999134585, 3.2784732000436634, 3.1724946999456733, 2.236710699973628, 4.202336199930869, 2.6471764999441803, 2.410076200030744, 2.373349600005895, 3.0959480999736115]","[11.332937400089577, 4.793040700023994, 5.32382819999475, 2.8293041000142694, 3.8839853000827134, 2.8683558999327943, 4.829940699972212, 2.471966499928385, 3.073025399935432, 4.605038299923763, 5.946814600029029, 5.18946619995404, 3.1047991000814363, 2.864683200023137, 2.741750300046988, 4.040180400013924, 4.697311699972488, 6.321404800051823, 3.207630299963057, 3.671248300001025, 3.278484100010246, 3.1725063999183476, 2.2367224000627175, 4.202348199905828, 2.6471883999183774, 2.4100881000049412, 2.3733610999770463, 3.0959599000634626]",,293447,001,2022-11-10_22h25.28.254,intentional binding_tutorial 7,2022.2.2,59.79219818524606,
0.4,1000,exp,2,4,28,4,222.33914940000977,223.34581909992266,223.34581909992266,223.34581909992266,space,2.215085400035605,225.9788013399346,226.2903550999472,226.2903550999472,226.2903550999472,200,29,"[11.332918500062078, 4.793035199982114, 5.323812499991618, 2.82929309993051, 3.8839784000301734, 2.8683482999913394, 4.829928799998015, 2.4719504999229684, 3.073013399960473, 4.6050263999495655, 5.946802399936132, 5.1894545999821275, 3.1047875999938697, 2.8646712000481784, 2.741741899983026, 4.040168400038965, 4.697298899991438, 6.321393099962734, 3.20761909999419, 3.6712367999134585, 3.2784732000436634, 3.1724946999456733, 2.236710699973628, 4.202336199930869, 2.6471764999441803, 2.410076200030744, 2.373349600005895, 3.0959480999736115, 2.261777800042182]","[11.332937400089577, 4.793040700023994, 5.32382819999475, 2.8293041000142694, 3.8839853000827134, 2.8683558999327943, 4.829940699972212, 2.471966499928385, 3.073025399935432, 4.605038299923763, 5.946814600029029, 5.18946619995404, 3.1047991000814363, 2.864683200023137, 2.741750300046988, 4.040180400013924, 4.697311699972488, 6.321404800051823, 3.207630299963057, 3.671248300001025, 3.278484100010246, 3.1725063999183476, 2.2367224000627175, 4.202348199905828, 2.6471883999183774, 2.4100881000049412, 2.3733610999770463, 3.0959599000634626, 2.261789000011049]",226.2903550999472,293447,001,2022-11-10_22h25.28.254,intentional binding_tutorial 7,2022.2.2,59.79219818524606,
0.7,1000,exp,2,5,29,8,228.53794019995257,229.5451057999162,229.5451057999162,229.5451057999162,space,0.7717146000359207,231.0446549399756,231.35501279996242,231.35501279996242,231.35501279996242,300,30,"[11.332918500062078, 4.793035199982114, 5.323812499991618, 2.82929309993051, 3.8839784000301734, 2.8683482999913394, 4.829928799998015, 2.4719504999229684, 3.073013399960473, 4.6050263999495655, 5.946802399936132, 5.1894545999821275, 3.1047875999938697, 2.8646712000481784, 2.741741899983026, 4.040168400038965, 4.697298899991438, 6.321393099962734, 3.20761909999419, 3.6712367999134585, 3.2784732000436634, 3.1724946999456733, 2.236710699973628, 4.202336199930869, 2.6471764999441803, 2.410076200030744, 2.373349600005895, 3.0959480999736115, 2.261777800042182, 1.806649599922821]","[11.332937400089577, 4.793040700023994, 5.32382819999475, 2.8293041000142694, 3.8839853000827134, 2.8683558999327943, 4.829940699972212, 2.471966499928385, 3.073025399935432, 4.605038299923763, 5.946814600029029, 5.18946619995404, 3.1047991000814363, 2.864683200023137, 2.741750300046988, 4.040180400013924, 4.697311699972488, 6.321404800051823, 3.207630299963057, 3.671248300001025, 3.278484100010246, 3.1725063999183476, 2.2367224000627175, 4.202348199905828, 2.6471883999183774, 2.4100881000049412, 2.3733610999770463, 3.0959599000634626, 2.261789000011049, 1.806661200011149]",,293447,001,2022-11-10_22h25.28.254,intentional binding_tutorial 7,2022.2.2,59.79219818524606,
0.4,1000,exp,2,6,30,7,233.14966559992172,234.1444835999282,234.1444835999282,234.16090019990224,space,2.520319200004451,237.09404953995255,237.41114709991962,237.41114709991962,237.41114709991962,200,31,"[11.332918500062078, 4.793035199982114, 5.323812499991618, 2.82929309993051, 3.8839784000301734, 2.8683482999913394, 4.829928799998015, 2.4719504999229684, 3.073013399960473, 4.6050263999495655, 5.946802399936132, 5.1894545999821275, 3.1047875999938697, 2.8646712000481784, 2.741741899983026, 4.040168400038965, 4.697298899991438, 6.321393099962734, 3.20761909999419, 3.6712367999134585, 3.2784732000436634, 3.1724946999456733, 2.236710699973628, 4.202336199930869, 2.6471764999441803, 2.410076200030744, 2.373349600005895, 3.0959480999736115, 2.261777800042182, 1.806649599922821, 1.690294999978505]","[11.332937400089577, 4.793040700023994, 5.32382819999475, 2.8293041000142694, 3.8839853000827134, 2.8683558999327943, 4.829940699972212, 2.471966499928385, 3.073025399935432, 4.605038299923763, 5.946814600029029, 5.18946619995404, 3.1047991000814363, 2.864683200023137, 2.741750300046988, 4.040180400013924, 4.697311699972488, 6.321404800051823, 3.207630299963057, 3.671248300001025, 3.278484100010246, 3.1725063999183476, 2.2367224000627175, 4.202348199905828, 2.6471883999183774, 2.4100881000049412, 2.3733610999770463, 3.0959599000634626, 2.261789000011049, 1.806661200011149, 1.6903073999565095]",,293447,001,2022-11-10_22h25.28.254,intentional binding_tutorial 7,2022.2.2,59.79219818524606,
0.7,400,unexp,2,7,31,2,239.0834923000075,240.0769904999761,240.0769904999761,240.09367559989914,space,1.8114328999072313,242.60975734000095,242.92033180000726,242.92033180000726,242.92033180000726,200,32,"[11.332918500062078, 4.793035199982114, 5.323812499991618, 2.82929309993051, 3.8839784000301734, 2.8683482999913394, 4.829928799998015, 2.4719504999229684, 3.073013399960473, 4.6050263999495655, 5.946802399936132, 5.1894545999821275, 3.1047875999938697, 2.8646712000481784, 2.741741899983026, 4.040168400038965, 4.697298899991438, 6.321393099962734, 3.20761909999419, 3.6712367999134585, 3.2784732000436634, 3.1724946999456733, 2.236710699973628, 4.202336199930869, 2.6471764999441803, 2.410076200030744, 2.373349600005895, 3.0959480999736115, 2.261777800042182, 1.806649599922821, 1.690294999978505, 1.4203751999884844]","[11.332937400089577, 4.793040700023994, 5.32382819999475, 2.8293041000142694, 3.8839853000827134, 2.8683558999327943, 4.829940699972212, 2.471966499928385, 3.073025399935432, 4.605038299923763, 5.946814600029029, 5.18946619995404, 3.1047991000814363, 2.864683200023137, 2.741750300046988, 4.040180400013924, 4.697311699972488, 6.321404800051823, 3.207630299963057, 3.671248300001025, 3.278484100010246, 3.1725063999183476, 2.2367224000627175, 4.202348199905828, 2.6471883999183774, 2.4100881000049412, 2.3733610999770463, 3.0959599000634626, 2.261789000011049, 1.806661200011149, 1.6903073999565095, 1.4203872999642044]",242.92033180000726,293447,001,2022-11-10_22h25.28.254,intentional binding_tutorial 7,2022.2.2,59.79219818524606,
0.4,1000,exp,2,8,32,10,244.32861919992138,245.3263904999476,245.3263904999476,245.34310439997353,space,2.1707396999699995,247.92570973997937,248.23675669997465,248.23675669997465,248.23675669997465,150,33,"[11.332918500062078, 4.793035199982114, 5.323812499991618, 2.82929309993051, 3.8839784000301734, 2.8683482999913394, 4.829928799998015, 2.4719504999229684, 3.073013399960473, 4.6050263999495655, 5.946802399936132, 5.1894545999821275, 3.1047875999938697, 2.8646712000481784, 2.741741899983026, 4.040168400038965, 4.697298899991438, 6.321393099962734, 3.20761909999419, 3.6712367999134585, 3.2784732000436634, 3.1724946999456733, 2.236710699973628, 4.202336199930869, 2.6471764999441803, 2.410076200030744, 2.373349600005895, 3.0959480999736115, 2.261777800042182, 1.806649599922821, 1.690294999978505, 1.4203751999884844, 2.7231321000726894]","[11.332937400089577, 4.793040700023994, 5.32382819999475, 2.8293041000142694, 3.8839853000827134, 2.8683558999327943, 4.829940699972212, 2.471966499928385, 3.073025399935432, 4.605038299923763, 5.946814600029029, 5.18946619995404, 3.1047991000814363, 2.864683200023137, 2.741750300046988, 4.040180400013924, 4.697311699972488, 6.321404800051823, 3.207630299963057, 3.671248300001025, 3.278484100010246, 3.1725063999183476, 2.2367224000627175, 4.202348199905828, 2.6471883999183774, 2.4100881000049412, 2.3733610999770463, 3.0959599000634626, 2.261789000011049, 1.806661200011149, 1.6903073999565095, 1.4203872999642044, 2.723145200056024]",,293447,001,2022-11-10_22h25.28.254,intentional binding_tutorial 7,2022.2.2,59.79219818524606,
0.1,1000,exp,2,9,33,6,250.94762739993166,251.94234189996496,251.94234189996496,251.95896610000636,space,1.5531143000116572,253.62499393995387,253.93346749991179,253.93346749991179,253.93346749991179,250,34,"[11.332918500062078, 4.793035199982114, 5.323812499991618, 2.82929309993051, 3.8839784000301734, 2.8683482999913394, 4.829928799998015, 2.4719504999229684, 3.073013399960473, 4.6050263999495655, 5.946802399936132, 5.1894545999821275, 3.1047875999938697, 2.8646712000481784, 2.741741899983026, 4.040168400038965, 4.697298899991438, 6.321393099962734, 3.20761909999419, 3.6712367999134585, 3.2784732000436634, 3.1724946999456733, 2.236710699973628, 4.202336199930869, 2.6471764999441803, 2.410076200030744, 2.373349600005895, 3.0959480999736115, 2.261777800042182, 1.806649599922821, 1.690294999978505, 1.4203751999884844, 2.7231321000726894, 3.6055967999855056]","[11.332937400089577, 4.793040700023994, 5.32382819999475, 2.8293041000142694, 3.8839853000827134, 2.8683558999327943, 4.829940699972212, 2.471966499928385, 3.073025399935432, 4.605038299923763, 5.946814600029029, 5.18946619995404, 3.1047991000814363, 2.864683200023137, 2.741750300046988, 4.040180400013924, 4.697311699972488, 6.321404800051823, 3.207630299963057, 3.671248300001025, 3.278484100010246, 3.1725063999183476, 2.2367224000627175, 4.202348199905828, 2.6471883999183774, 2.4100881000049412, 2.3733610999770463, 3.0959599000634626, 2.261789000011049, 1.806661200011149, 1.6903073999565095, 1.4203872999642044, 2.723145200056024, 3.6056032999185845]",,293447,001,2022-11-10_22h25.28.254,intentional binding_tutorial 7,2022.2.2,59.79219818524606,
0.7,1000,exp,2,10,34,5,257.5244720999617,258.5245569999097,258.5245569999097,258.5245569999097,space,1.0095651999581605,260.2576082399581,260.5677626999095,260.5677626999095,260.5677626999095,100,35,"[11.332918500062078, 4.793035199982114, 5.323812499991618, 2.82929309993051, 3.8839784000301734, 2.8683482999913394, 4.829928799998015, 2.4719504999229684, 3.073013399960473, 4.6050263999495655, 5.946802399936132, 5.1894545999821275, 3.1047875999938697, 2.8646712000481784, 2.741741899983026, 4.040168400038965, 4.697298899991438, 6.321393099962734, 3.20761909999419, 3.6712367999134585, 3.2784732000436634, 3.1724946999456733, 2.236710699973628, 4.202336199930869, 2.6471764999441803, 2.410076200030744, 2.373349600005895, 3.0959480999736115, 2.261777800042182, 1.806649599922821, 1.690294999978505, 1.4203751999884844, 2.7231321000726894, 3.6055967999855056, 2.1748238999862224]","[11.332937400089577, 4.793040700023994, 5.32382819999475, 2.8293041000142694, 3.8839853000827134, 2.8683558999327943, 4.829940699972212, 2.471966499928385, 3.073025399935432, 4.605038299923763, 5.946814600029029, 5.18946619995404, 3.1047991000814363, 2.864683200023137, 2.741750300046988, 4.040180400013924, 4.697311699972488, 6.321404800051823, 3.207630299963057, 3.671248300001025, 3.278484100010246, 3.1725063999183476, 2.2367224000627175, 4.202348199905828, 2.6471883999183774, 2.4100881000049412, 2.3733610999770463, 3.0959599000634626, 2.261789000011049, 1.806661200011149, 1.6903073999565095, 1.4203872999642044, 2.723145200056024, 3.6056032999185845, 2.174859600025229]",260.5677626999095,293447,001,2022-11-10_22h25.28.254,intentional binding_tutorial 7,2022.2.2,59.79219818524606,
0.4,400,unexp,2,11,35,1,262.73059849999845,263.72375070001,263.72375070001,263.7404510999331,space,1.3515145001001656,265.4905211400008,265.7986148999771,265.7986148999771,265.7986148999771,250,36,"[11.332918500062078, 4.793035199982114, 5.323812499991618, 2.82929309993051, 3.8839784000301734, 2.8683482999913394, 4.829928799998015, 2.4719504999229684, 3.073013399960473, 4.6050263999495655, 5.946802399936132, 5.1894545999821275, 3.1047875999938697, 2.8646712000481784, 2.741741899983026, 4.040168400038965, 4.697298899991438, 6.321393099962734, 3.20761909999419, 3.6712367999134585, 3.2784732000436634, 3.1724946999456733, 2.236710699973628, 4.202336199930869, 2.6471764999441803, 2.410076200030744, 2.373349600005895, 3.0959480999736115, 2.261777800042182, 1.806649599922821, 1.690294999978505, 1.4203751999884844, 2.7231321000726894, 3.6055967999855056, 2.1748238999862224, 2.609657699940726]","[11.332937400089577, 4.793040700023994, 5.32382819999475, 2.8293041000142694, 3.8839853000827134, 2.8683558999327943, 4.829940699972212, 2.471966499928385, 3.073025399935432, 4.605038299923763, 5.946814600029029, 5.18946619995404, 3.1047991000814363, 2.864683200023137, 2.741750300046988, 4.040180400013924, 4.697311699972488, 6.321404800051823, 3.207630299963057, 3.671248300001025, 3.278484100010246, 3.1725063999183476, 2.2367224000627175, 4.202348199905828, 2.6471883999183774, 2.4100881000049412, 2.3733610999770463, 3.0959599000634626, 2.261789000011049, 1.806661200011149, 1.6903073999565095, 1.4203872999642044, 2.723145200056024, 3.6056032999185845, 2.174859600025229, 2.609671799931675]",,293447,001,2022-11-10_22h25.28.254,intentional binding_tutorial 7,2022.2.2,59.79219818524606,
0.1,1000,exp,3,0,36,6,268.39763819996733,269.3898735999828,269.3898735999828,269.40645919996314,space,39.5750476999674,309.08459803992884,309.4005942000076,309.4005942000076,309.4005942000076,200,37,"[11.332918500062078, 4.793035199982114, 5.323812499991618, 2.82929309993051, 3.8839784000301734, 2.8683482999913394, 4.829928799998015, 2.4719504999229684, 3.073013399960473, 4.6050263999495655, 5.946802399936132, 5.1894545999821275, 3.1047875999938697, 2.8646712000481784, 2.741741899983026, 4.040168400038965, 4.697298899991438, 6.321393099962734, 3.20761909999419, 3.6712367999134585, 3.2784732000436634, 3.1724946999456733, 2.236710699973628, 4.202336199930869, 2.6471764999441803, 2.410076200030744, 2.373349600005895, 3.0959480999736115, 2.261777800042182, 1.806649599922821, 1.690294999978505, 1.4203751999884844, 2.7231321000726894, 3.6055967999855056, 2.1748238999862224, 2.609657699940726, 1.8670950999949127]","[11.332937400089577, 4.793040700023994, 5.32382819999475, 2.8293041000142694, 3.8839853000827134, 2.8683558999327943, 4.829940699972212, 2.471966499928385, 3.073025399935432, 4.605038299923763, 5.946814600029029, 5.18946619995404, 3.1047991000814363, 2.864683200023137, 2.741750300046988, 4.040180400013924, 4.697311699972488, 6.321404800051823, 3.207630299963057, 3.671248300001025, 3.278484100010246, 3.1725063999183476, 2.2367224000627175, 4.202348199905828, 2.6471883999183774, 2.4100881000049412, 2.3733610999770463, 3.0959599000634626, 2.261789000011049, 1.806661200011149, 1.6903073999565095, 1.4203872999642044, 2.723145200056024, 3.6056032999185845, 2.174859600025229, 2.609671799931675, 1.8671073999721557]",,293447,001,2022-11-10_22h25.28.254,intentional binding_tutorial 7,2022.2.2,59.79219818524606,
0.4,1000,exp,3,1,37,10,311.24985549994744,312.2509419999551,312.2509419999551,312.2509419999551,space,6.271592400036752,318.94996923995205,319.2616095999256,319.2616095999256,319.2616095999256,200,38,"[11.332918500062078, 4.793035199982114, 5.323812499991618, 2.82929309993051, 3.8839784000301734, 2.8683482999913394, 4.829928799998015, 2.4719504999229684, 3.073013399960473, 4.6050263999495655, 5.946802399936132, 5.1894545999821275, 3.1047875999938697, 2.8646712000481784, 2.741741899983026, 4.040168400038965, 4.697298899991438, 6.321393099962734, 3.20761909999419, 3.6712367999134585, 3.2784732000436634, 3.1724946999456733, 2.236710699973628, 4.202336199930869, 2.6471764999441803, 2.410076200030744, 2.373349600005895, 3.0959480999736115, 2.261777800042182, 1.806649599922821, 1.690294999978505, 1.4203751999884844, 2.7231321000726894, 3.6055967999855056, 2.1748238999862224, 2.609657699940726, 1.8670950999949127, 1.7499408000148833]","[11.332937400089577, 4.793040700023994, 5.32382819999475, 2.8293041000142694, 3.8839853000827134, 2.8683558999327943, 4.829940699972212, 2.471966499928385, 3.073025399935432, 4.605038299923763, 5.946814600029029, 5.18946619995404, 3.1047991000814363, 2.864683200023137, 2.741750300046988, 4.040180400013924, 4.697311699972488, 6.321404800051823, 3.207630299963057, 3.671248300001025, 3.278484100010246, 3.1725063999183476, 2.2367224000627175, 4.202348199905828, 2.6471883999183774, 2.4100881000049412, 2.3733610999770463, 3.0959599000634626, 2.261789000011049, 1.806661200011149, 1.6903073999565095, 1.4203872999642044, 2.723145200056024, 3.6056032999185845, 2.174859600025229, 2.609671799931675, 1.8671073999721557, 1.7499527999898419]",,293447,001,2022-11-10_22h25.28.254,intentional binding_tutorial 7,2022.2.2,59.79219818524606,
0.7,1000,exp,3,2,38,5,320.99692949990276,321.99968939996324,321.99968939996324,321.99968939996324,space,1.9307745000114664,324.649205139908,324.9594420999056,324.9594420999056,324.9594420999056,200,39,"[11.332918500062078, 4.793035199982114, 5.323812499991618, 2.82929309993051, 3.8839784000301734, 2.8683482999913394, 4.829928799998015, 2.4719504999229684, 3.073013399960473, 4.6050263999495655, 5.946802399936132, 5.1894545999821275, 3.1047875999938697, 2.8646712000481784, 2.741741899983026, 4.040168400038965, 4.697298899991438, 6.321393099962734, 3.20761909999419, 3.6712367999134585, 3.2784732000436634, 3.1724946999456733, 2.236710699973628, 4.202336199930869, 2.6471764999441803, 2.410076200030744, 2.373349600005895, 3.0959480999736115, 2.261777800042182, 1.806649599922821, 1.690294999978505, 1.4203751999884844, 2.7231321000726894, 3.6055967999855056, 2.1748238999862224, 2.609657699940726, 1.8670950999949127, 1.7499408000148833, 2.174800700042397]","[11.332937400089577, 4.793040700023994, 5.32382819999475, 2.8293041000142694, 3.8839853000827134, 2.8683558999327943, 4.829940699972212, 2.471966499928385, 3.073025399935432, 4.605038299923763, 5.946814600029029, 5.18946619995404, 3.1047991000814363, 2.864683200023137, 2.741750300046988, 4.040180400013924, 4.697311699972488, 6.321404800051823, 3.207630299963057, 3.671248300001025, 3.278484100010246, 3.1725063999183476, 2.2367224000627175, 4.202348199905828, 2.6471883999183774, 2.4100881000049412, 2.3733610999770463, 3.0959599000634626, 2.261789000011049, 1.806661200011149, 1.6903073999565095, 1.4203872999642044, 2.723145200056024, 3.6056032999185845, 2.174859600025229, 2.609671799931675, 1.8671073999721557, 1.7499527999898419, 2.174811700009741]",324.9594420999056,293447,001,2022-11-10_22h25.28.254,intentional binding_tutorial 7,2022.2.2,59.79219818524606,
0.1,1000,exp,3,3,39,9,327.1225306999404,328.1156179999234,328.1156179999234,328.1324695999501,space,60.558022400015034,388.79117693991867,389.10122369998135,389.10122369998135,389.10122369998135,200,40,"[11.332918500062078, 4.793035199982114, 5.323812499991618, 2.82929309993051, 3.8839784000301734, 2.8683482999913394, 4.829928799998015, 2.4719504999229684, 3.073013399960473, 4.6050263999495655, 5.946802399936132, 5.1894545999821275, 3.1047875999938697, 2.8646712000481784, 2.741741899983026, 4.040168400038965, 4.697298899991438, 6.321393099962734, 3.20761909999419, 3.6712367999134585, 3.2784732000436634, 3.1724946999456733, 2.236710699973628, 4.202336199930869, 2.6471764999441803, 2.410076200030744, 2.373349600005895, 3.0959480999736115, 2.261777800042182, 1.806649599922821, 1.690294999978505, 1.4203751999884844, 2.7231321000726894, 3.6055967999855056, 2.1748238999862224, 2.609657699940726, 1.8670950999949127, 1.7499408000148833, 2.174800700042397, 1.9134114000480622]","[11.332937400089577, 4.793040700023994, 5.32382819999475, 2.8293041000142694, 3.8839853000827134, 2.8683558999327943, 4.829940699972212, 2.471966499928385, 3.073025399935432, 4.605038299923763, 5.946814600029029, 5.18946619995404, 3.1047991000814363, 2.864683200023137, 2.741750300046988, 4.040180400013924, 4.697311699972488, 6.321404800051823, 3.207630299963057, 3.671248300001025, 3.278484100010246, 3.1725063999183476, 2.2367224000627175, 4.202348199905828, 2.6471883999183774, 2.4100881000049412, 2.3733610999770463, 3.0959599000634626, 2.261789000011049, 1.806661200011149, 1.6903073999565095, 1.4203872999642044, 2.723145200056024, 3.6056032999185845, 2.174859600025229, 2.609671799931675, 1.8671073999721557, 1.7499527999898419, 2.174811700009741, 1.913429499953054]",,293447,001,2022-11-10_22h25.28.254,intentional binding_tutorial 7,2022.2.2,59.79219818524606,
0.4,400,unexp,3,4,40,1,391.00335919996724,392.007549699978,392.007549699978,392.007549699978,space,0.5573574000736699,392.9903418399161,393.3025642000139,393.3025642000139,393.3025642000139,200,41,"[11.332918500062078, 4.793035199982114, 5.323812499991618, 2.82929309993051, 3.8839784000301734, 2.8683482999913394, 4.829928799998015, 2.4719504999229684, 3.073013399960473, 4.6050263999495655, 5.946802399936132, 5.1894545999821275, 3.1047875999938697, 2.8646712000481784, 2.741741899983026, 4.040168400038965, 4.697298899991438, 6.321393099962734, 3.20761909999419, 3.6712367999134585, 3.2784732000436634, 3.1724946999456733, 2.236710699973628, 4.202336199930869, 2.6471764999441803, 2.410076200030744, 2.373349600005895, 3.0959480999736115, 2.261777800042182, 1.806649599922821, 1.690294999978505, 1.4203751999884844, 2.7231321000726894, 3.6055967999855056, 2.1748238999862224, 2.609657699940726, 1.8670950999949127, 1.7499408000148833, 2.174800700042397, 1.9134114000480622, 2.069983100052923]","[11.332937400089577, 4.793040700023994, 5.32382819999475, 2.8293041000142694, 3.8839853000827134, 2.8683558999327943, 4.829940699972212, 2.471966499928385, 3.073025399935432, 4.605038299923763, 5.946814600029029, 5.18946619995404, 3.1047991000814363, 2.864683200023137, 2.741750300046988, 4.040180400013924, 4.697311699972488, 6.321404800051823, 3.207630299963057, 3.671248300001025, 3.278484100010246, 3.1725063999183476, 2.2367224000627175, 4.202348199905828, 2.6471883999183774, 2.4100881000049412, 2.3733610999770463, 3.0959599000634626, 2.261789000011049, 1.806661200011149, 1.6903073999565095, 1.4203872999642044, 2.723145200056024, 3.6056032999185845, 2.174859600025229, 2.609671799931675, 1.8671073999721557, 1.7499527999898419, 2.174811700009741, 1.913429499953054, 2.0699947000248358]",393.3025642000139,293447,001,2022-11-10_22h25.28.254,intentional binding_tutorial 7,2022.2.2,59.79219818524606,
0.7,1000,exp,3,5,41,11,395.3596845999127,396.3570357999997,396.3570357999997,396.37344569992274,space,0.6096866000443697,397.689759039972,397.99972889991477,397.99972889991477,397.99972889991477,200,42,"[11.332918500062078, 4.793035199982114, 5.323812499991618, 2.82929309993051, 3.8839784000301734, 2.8683482999913394, 4.829928799998015, 2.4719504999229684, 3.073013399960473, 4.6050263999495655, 5.946802399936132, 5.1894545999821275, 3.1047875999938697, 2.8646712000481784, 2.741741899983026, 4.040168400038965, 4.697298899991438, 6.321393099962734, 3.20761909999419, 3.6712367999134585, 3.2784732000436634, 3.1724946999456733, 2.236710699973628, 4.202336199930869, 2.6471764999441803, 2.410076200030744, 2.373349600005895, 3.0959480999736115, 2.261777800042182, 1.806649599922821, 1.690294999978505, 1.4203751999884844, 2.7231321000726894, 3.6055967999855056, 2.1748238999862224, 2.609657699940726, 1.8670950999949127, 1.7499408000148833, 2.174800700042397, 1.9134114000480622, 2.069983100052923, 1.4834245000965893]","[11.332937400089577, 4.793040700023994, 5.32382819999475, 2.8293041000142694, 3.8839853000827134, 2.8683558999327943, 4.829940699972212, 2.471966499928385, 3.073025399935432, 4.605038299923763, 5.946814600029029, 5.18946619995404, 3.1047991000814363, 2.864683200023137, 2.741750300046988, 4.040180400013924, 4.697311699972488, 6.321404800051823, 3.207630299963057, 3.671248300001025, 3.278484100010246, 3.1725063999183476, 2.2367224000627175, 4.202348199905828, 2.6471883999183774, 2.4100881000049412, 2.3733610999770463, 3.0959599000634626, 2.261789000011049, 1.806661200011149, 1.6903073999565095, 1.4203872999642044, 2.723145200056024, 3.6056032999185845, 2.174859600025229, 2.609671799931675, 1.8671073999721557, 1.7499527999898419, 2.174811700009741, 1.913429499953054, 2.0699947000248358, 1.4834364000707865]",397.99972889991477,293447,001,2022-11-10_22h25.28.254,intentional binding_tutorial 7,2022.2.2,59.79219818524606,
0.4,1000,exp,3,6,42,7,399.4718763999408,400.47289490001276,400.47289490001276,400.47289490001276,space,0.5380122000351548,401.43934543996585,401.74834449996706,401.74834449996706,401.74834449996706,200 ,43,"[11.332918500062078, 4.793035199982114, 5.323812499991618, 2.82929309993051, 3.8839784000301734, 2.8683482999913394, 4.829928799998015, 2.4719504999229684, 3.073013399960473, 4.6050263999495655, 5.946802399936132, 5.1894545999821275, 3.1047875999938697, 2.8646712000481784, 2.741741899983026, 4.040168400038965, 4.697298899991438, 6.321393099962734, 3.20761909999419, 3.6712367999134585, 3.2784732000436634, 3.1724946999456733, 2.236710699973628, 4.202336199930869, 2.6471764999441803, 2.410076200030744, 2.373349600005895, 3.0959480999736115, 2.261777800042182, 1.806649599922821, 1.690294999978505, 1.4203751999884844, 2.7231321000726894, 3.6055967999855056, 2.1748238999862224, 2.609657699940726, 1.8670950999949127, 1.7499408000148833, 2.174800700042397, 1.9134114000480622, 2.069983100052923, 1.4834245000965893, 2.8428881999570876]","[11.332937400089577, 4.793040700023994, 5.32382819999475, 2.8293041000142694, 3.8839853000827134, 2.8683558999327943, 4.829940699972212, 2.471966499928385, 3.073025399935432, 4.605038299923763, 5.946814600029029, 5.18946619995404, 3.1047991000814363, 2.864683200023137, 2.741750300046988, 4.040180400013924, 4.697311699972488, 6.321404800051823, 3.207630299963057, 3.671248300001025, 3.278484100010246, 3.1725063999183476, 2.2367224000627175, 4.202348199905828, 2.6471883999183774, 2.4100881000049412, 2.3733610999770463, 3.0959599000634626, 2.261789000011049, 1.806661200011149, 1.6903073999565095, 1.4203872999642044, 2.723145200056024, 3.6056032999185845, 2.174859600025229, 2.609671799931675, 1.8671073999721557, 1.7499527999898419, 2.174811700009741, 1.913429499953054, 2.0699947000248358, 1.4834364000707865, 2.842900599935092]",,293447,001,2022-11-10_22h25.28.254,intentional binding_tutorial 7,2022.2.2,59.79219818524606,
0.7,1000,exp,3,7,43,8,404.5804981999099,405.57251899992116,405.57251899992116,405.58915279991925,space,1.6721063000150025,407.97186914000196,408.2838705999311,408.2838705999311,408.2838705999311,200,44,"[11.332918500062078, 4.793035199982114, 5.323812499991618, 2.82929309993051, 3.8839784000301734, 2.8683482999913394, 4.829928799998015, 2.4719504999229684, 3.073013399960473, 4.6050263999495655, 5.946802399936132, 5.1894545999821275, 3.1047875999938697, 2.8646712000481784, 2.741741899983026, 4.040168400038965, 4.697298899991438, 6.321393099962734, 3.20761909999419, 3.6712367999134585, 3.2784732000436634, 3.1724946999456733, 2.236710699973628, 4.202336199930869, 2.6471764999441803, 2.410076200030744, 2.373349600005895, 3.0959480999736115, 2.261777800042182, 1.806649599922821, 1.690294999978505, 1.4203751999884844, 2.7231321000726894, 3.6055967999855056, 2.1748238999862224, 2.609657699940726, 1.8670950999949127, 1.7499408000148833, 2.174800700042397, 1.9134114000480622, 2.069983100052923, 1.4834245000965893, 2.8428881999570876, 1.695685900049284]","[11.332937400089577, 4.793040700023994, 5.32382819999475, 2.8293041000142694, 3.8839853000827134, 2.8683558999327943, 4.829940699972212, 2.471966499928385, 3.073025399935432, 4.605038299923763, 5.946814600029029, 5.18946619995404, 3.1047991000814363, 2.864683200023137, 2.741750300046988, 4.040180400013924, 4.697311699972488, 6.321404800051823, 3.207630299963057, 3.671248300001025, 3.278484100010246, 3.1725063999183476, 2.2367224000627175, 4.202348199905828, 2.6471883999183774, 2.4100881000049412, 2.3733610999770463, 3.0959599000634626, 2.261789000011049, 1.806661200011149, 1.6903073999565095, 1.4203872999642044, 2.723145200056024, 3.6056032999185845, 2.174859600025229, 2.609671799931675, 1.8671073999721557, 1.7499527999898419, 2.174811700009741, 1.913429499953054, 2.0699947000248358, 1.4834364000707865, 2.842900599935092, 1.6957036000676453]",408.2838705999311,293447,001,2022-11-10_22h25.28.254,intentional binding_tutorial 7,2022.2.2,59.79219818524606,
0.1,400,unexp,3,8,44,0,409.965527299908,410.97148099995684,410.97148099995684,410.97148099995684,space,30.793471400043927,441.88410213992466,442.19450639991555,442.19450639991555,442.19450639991555,200,45,"[11.332918500062078, 4.793035199982114, 5.323812499991618, 2.82929309993051, 3.8839784000301734, 2.8683482999913394, 4.829928799998015, 2.4719504999229684, 3.073013399960473, 4.6050263999495655, 5.946802399936132, 5.1894545999821275, 3.1047875999938697, 2.8646712000481784, 2.741741899983026, 4.040168400038965, 4.697298899991438, 6.321393099962734, 3.20761909999419, 3.6712367999134585, 3.2784732000436634, 3.1724946999456733, 2.236710699973628, 4.202336199930869, 2.6471764999441803, 2.410076200030744, 2.373349600005895, 3.0959480999736115, 2.261777800042182, 1.806649599922821, 1.690294999978505, 1.4203751999884844, 2.7231321000726894, 3.6055967999855056, 2.1748238999862224, 2.609657699940726, 1.8670950999949127, 1.7499408000148833, 2.174800700042397, 1.9134114000480622, 2.069983100052923, 1.4834245000965893, 2.8428881999570876, 1.695685900049284, 1.718396299984306]","[11.332937400089577, 4.793040700023994, 5.32382819999475, 2.8293041000142694, 3.8839853000827134, 2.8683558999327943, 4.829940699972212, 2.471966499928385, 3.073025399935432, 4.605038299923763, 5.946814600029029, 5.18946619995404, 3.1047991000814363, 2.864683200023137, 2.741750300046988, 4.040180400013924, 4.697311699972488, 6.321404800051823, 3.207630299963057, 3.671248300001025, 3.278484100010246, 3.1725063999183476, 2.2367224000627175, 4.202348199905828, 2.6471883999183774, 2.4100881000049412, 2.3733610999770463, 3.0959599000634626, 2.261789000011049, 1.806661200011149, 1.6903073999565095, 1.4203872999642044, 2.723145200056024, 3.6056032999185845, 2.174859600025229, 2.609671799931675, 1.8671073999721557, 1.7499527999898419, 2.174811700009741, 1.913429499953054, 2.0699947000248358, 1.4834364000707865, 2.842900599935092, 1.6957036000676453, 1.718407499953173]",,293447,001,2022-11-10_22h25.28.254,intentional binding_tutorial 7,2022.2.2,59.79219818524606,
0.4,1000,exp,3,9,45,4,443.90163469989784,444.90065279998817,444.90065279998817,444.91752769995946,space,0.4085506000556052,445.7337308399845,446.045385299949,446.045385299949,446.045385299949,100,46,"[11.332918500062078, 4.793035199982114, 5.323812499991618, 2.82929309993051, 3.8839784000301734, 2.8683482999913394, 4.829928799998015, 2.4719504999229684, 3.073013399960473, 4.6050263999495655, 5.946802399936132, 5.1894545999821275, 3.1047875999938697, 2.8646712000481784, 2.741741899983026, 4.040168400038965, 4.697298899991438, 6.321393099962734, 3.20761909999419, 3.6712367999134585, 3.2784732000436634, 3.1724946999456733, 2.236710699973628, 4.202336199930869, 2.6471764999441803, 2.410076200030744, 2.373349600005895, 3.0959480999736115, 2.261777800042182, 1.806649599922821, 1.690294999978505, 1.4203751999884844, 2.7231321000726894, 3.6055967999855056, 2.1748238999862224, 2.609657699940726, 1.8670950999949127, 1.7499408000148833, 2.174800700042397, 1.9134114000480622, 2.069983100052923, 1.4834245000965893, 2.8428881999570876, 1.695685900049284, 1.718396299984306, 1.4087219000793993]","[11.332937400089577, 4.793040700023994, 5.32382819999475, 2.8293041000142694, 3.8839853000827134, 2.8683558999327943, 4.829940699972212, 2.471966499928385, 3.073025399935432, 4.605038299923763, 5.946814600029029, 5.18946619995404, 3.1047991000814363, 2.864683200023137, 2.741750300046988, 4.040180400013924, 4.697311699972488, 6.321404800051823, 3.207630299963057, 3.671248300001025, 3.278484100010246, 3.1725063999183476, 2.2367224000627175, 4.202348199905828, 2.6471883999183774, 2.4100881000049412, 2.3733610999770463, 3.0959599000634626, 2.261789000011049, 1.806661200011149, 1.6903073999565095, 1.4203872999642044, 2.723145200056024, 3.6056032999185845, 2.174859600025229, 2.609671799931675, 1.8671073999721557, 1.7499527999898419, 2.174811700009741, 1.913429499953054, 2.0699947000248358, 1.4834364000707865, 2.842900599935092, 1.6957036000676453, 1.718407499953173, 1.4087340000551194]",446.045385299949,293447,001,2022-11-10_22h25.28.254,intentional binding_tutorial 7,2022.2.2,59.79219818524606,
0.7,400,unexp,3,10,46,2,447.4437237000093,448.4334174999967,448.4334174999967,448.4502939999802,space,1.1893287999555469,450.34969804000576,450.65997649997007,450.65997649997007,450.65997649997007,200 ,47,"[11.332918500062078, 4.793035199982114, 5.323812499991618, 2.82929309993051, 3.8839784000301734, 2.8683482999913394, 4.829928799998015, 2.4719504999229684, 3.073013399960473, 4.6050263999495655, 5.946802399936132, 5.1894545999821275, 3.1047875999938697, 2.8646712000481784, 2.741741899983026, 4.040168400038965, 4.697298899991438, 6.321393099962734, 3.20761909999419, 3.6712367999134585, 3.2784732000436634, 3.1724946999456733, 2.236710699973628, 4.202336199930869, 2.6471764999441803, 2.410076200030744, 2.373349600005895, 3.0959480999736115, 2.261777800042182, 1.806649599922821, 1.690294999978505, 1.4203751999884844, 2.7231321000726894, 3.6055967999855056, 2.1748238999862224, 2.609657699940726, 1.8670950999949127, 1.7499408000148833, 2.174800700042397, 1.9134114000480622, 2.069983100052923, 1.4834245000965893, 2.8428881999570876, 1.695685900049284, 1.718396299984306, 1.4087219000793993, 2.680609899922274]","[11.332937400089577, 4.793040700023994, 5.32382819999475, 2.8293041000142694, 3.8839853000827134, 2.8683558999327943, 4.829940699972212, 2.471966499928385, 3.073025399935432, 4.605038299923763, 5.946814600029029, 5.18946619995404, 3.1047991000814363, 2.864683200023137, 2.741750300046988, 4.040180400013924, 4.697311699972488, 6.321404800051823, 3.207630299963057, 3.671248300001025, 3.278484100010246, 3.1725063999183476, 2.2367224000627175, 4.202348199905828, 2.6471883999183774, 2.4100881000049412, 2.3733610999770463, 3.0959599000634626, 2.261789000011049, 1.806661200011149, 1.6903073999565095, 1.4203872999642044, 2.723145200056024, 3.6056032999185845, 2.174859600025229, 2.609671799931675, 1.8671073999721557, 1.7499527999898419, 2.174811700009741, 1.913429499953054, 2.0699947000248358, 1.4834364000707865, 2.842900599935092, 1.6957036000676453, 1.718407499953173, 1.4087340000551194, 2.680621900013648]",,293447,001,2022-11-10_22h25.28.254,intentional binding_tutorial 7,2022.2.2,59.79219818524606,
0.1,1000,exp,3,11,47,3,453.32849149999674,454.3325840999605,454.3325840999605,454.3325840999605,space,2.603488299995661,457.0657383399783,457.375482799951,457.375482799951,457.375482799951,200,48,"[11.332918500062078, 4.793035199982114, 5.323812499991618, 2.82929309993051, 3.8839784000301734, 2.8683482999913394, 4.829928799998015, 2.4719504999229684, 3.073013399960473, 4.6050263999495655, 5.946802399936132, 5.1894545999821275, 3.1047875999938697, 2.8646712000481784, 2.741741899983026, 4.040168400038965, 4.697298899991438, 6.321393099962734, 3.20761909999419, 3.6712367999134585, 3.2784732000436634, 3.1724946999456733, 2.236710699973628, 4.202336199930869, 2.6471764999441803, 2.410076200030744, 2.373349600005895, 3.0959480999736115, 2.261777800042182, 1.806649599922821, 1.690294999978505, 1.4203751999884844, 2.7231321000726894, 3.6055967999855056, 2.1748238999862224, 2.609657699940726, 1.8670950999949127, 1.7499408000148833, 2.174800700042397, 1.9134114000480622, 2.069983100052923, 1.4834245000965893, 2.8428881999570876, 1.695685900049284, 1.718396299984306, 1.4087219000793993, 2.680609899922274, 2.012250900035724]","[11.332937400089577, 4.793040700023994, 5.32382819999475, 2.8293041000142694, 3.8839853000827134, 2.8683558999327943, 4.829940699972212, 2.471966499928385, 3.073025399935432, 4.605038299923763, 5.946814600029029, 5.18946619995404, 3.1047991000814363, 2.864683200023137, 2.741750300046988, 4.040180400013924, 4.697311699972488, 6.321404800051823, 3.207630299963057, 3.671248300001025, 3.278484100010246, 3.1725063999183476, 2.2367224000627175, 4.202348199905828, 2.6471883999183774, 2.4100881000049412, 2.3733610999770463, 3.0959599000634626, 2.261789000011049, 1.806661200011149, 1.6903073999565095, 1.4203872999642044, 2.723145200056024, 3.6056032999185845, 2.174859600025229, 2.609671799931675, 1.8671073999721557, 1.7499527999898419, 2.174811700009741, 1.913429499953054, 2.0699947000248358, 1.4834364000707865, 2.842900599935092, 1.6957036000676453, 1.718407499953173, 1.4087340000551194, 2.680621900013648, 2.012262100004591]",,293447,001,2022-11-10_22h25.28.254,intentional binding_tutorial 7,2022.2.2,59.79219818524606,
0.1,1000,exp,4,0,48,9,459.3754374999553,460.3817006999161,460.3817006999161,460.3817006999161,space,49.10203800001182,509.6089394399431,509.9208123999415,509.9208123999415,509.9208123999415,150,49,"[11.332918500062078, 4.793035199982114, 5.323812499991618, 2.82929309993051, 3.8839784000301734, 2.8683482999913394, 4.829928799998015, 2.4719504999229684, 3.073013399960473, 4.6050263999495655, 5.946802399936132, 5.1894545999821275, 3.1047875999938697, 2.8646712000481784, 2.741741899983026, 4.040168400038965, 4.697298899991438, 6.321393099962734, 3.20761909999419, 3.6712367999134585, 3.2784732000436634, 3.1724946999456733, 2.236710699973628, 4.202336199930869, 2.6471764999441803, 2.410076200030744, 2.373349600005895, 3.0959480999736115, 2.261777800042182, 1.806649599922821, 1.690294999978505, 1.4203751999884844, 2.7231321000726894, 3.6055967999855056, 2.1748238999862224, 2.609657699940726, 1.8670950999949127, 1.7499408000148833, 2.174800700042397, 1.9134114000480622, 2.069983100052923, 1.4834245000965893, 2.8428881999570876, 1.695685900049284, 1.718396299984306, 1.4087219000793993, 2.680609899922274, 2.012250900035724, 2.628943599993363]","[11.332937400089577, 4.793040700023994, 5.32382819999475, 2.8293041000142694, 3.8839853000827134, 2.8683558999327943, 4.829940699972212, 2.471966499928385, 3.073025399935432, 4.605038299923763, 5.946814600029029, 5.18946619995404, 3.1047991000814363, 2.864683200023137, 2.741750300046988, 4.040180400013924, 4.697311699972488, 6.321404800051823, 3.207630299963057, 3.671248300001025, 3.278484100010246, 3.1725063999183476, 2.2367224000627175, 4.202348199905828, 2.6471883999183774, 2.4100881000049412, 2.3733610999770463, 3.0959599000634626, 2.261789000011049, 1.806661200011149, 1.6903073999565095, 1.4203872999642044, 2.723145200056024, 3.6056032999185845, 2.174859600025229, 2.609671799931675, 1.8671073999721557, 1.7499527999898419, 2.174811700009741, 1.913429499953054, 2.0699947000248358, 1.4834364000707865, 2.842900599935092, 1.6957036000676453, 1.718407499953173, 1.4087340000551194, 2.680621900013648, 2.012262100004591, 2.6289595999987796]",509.9208123999415,293447,001,2022-11-10_22h25.28.254,intentional binding_tutorial 7,2022.2.2,59.79219818524606,
0.7,400,unexp,4,1,49,2,512.5346437999979,513.5415244000033,513.5415244000033,513.5415244000033,space,0.4757525000022724,514.7414966399781,515.0539706000127,515.0539706000127,515.0539706000127,100,50,"[11.332918500062078, 4.793035199982114, 5.323812499991618, 2.82929309993051, 3.8839784000301734, 2.8683482999913394, 4.829928799998015, 2.4719504999229684, 3.073013399960473, 4.6050263999495655, 5.946802399936132, 5.1894545999821275, 3.1047875999938697, 2.8646712000481784, 2.741741899983026, 4.040168400038965, 4.697298899991438, 6.321393099962734, 3.20761909999419, 3.6712367999134585, 3.2784732000436634, 3.1724946999456733, 2.236710699973628, 4.202336199930869, 2.6471764999441803, 2.410076200030744, 2.373349600005895, 3.0959480999736115, 2.261777800042182, 1.806649599922821, 1.690294999978505, 1.4203751999884844, 2.7231321000726894, 3.6055967999855056, 2.1748238999862224, 2.609657699940726, 1.8670950999949127, 1.7499408000148833, 2.174800700042397, 1.9134114000480622, 2.069983100052923, 1.4834245000965893, 2.8428881999570876, 1.695685900049284, 1.718396299984306, 1.4087219000793993, 2.680609899922274, 2.012250900035724, 2.628943599993363, 1.6224728000815958]","[11.332937400089577, 4.793040700023994, 5.32382819999475, 2.8293041000142694, 3.8839853000827134, 2.8683558999327943, 4.829940699972212, 2.471966499928385, 3.073025399935432, 4.605038299923763, 5.946814600029029, 5.18946619995404, 3.1047991000814363, 2.864683200023137, 2.741750300046988, 4.040180400013924, 4.697311699972488, 6.321404800051823, 3.207630299963057, 3.671248300001025, 3.278484100010246, 3.1725063999183476, 2.2367224000627175, 4.202348199905828, 2.6471883999183774, 2.4100881000049412, 2.3733610999770463, 3.0959599000634626, 2.261789000011049, 1.806661200011149, 1.6903073999565095, 1.4203872999642044, 2.723145200056024, 3.6056032999185845, 2.174859600025229, 2.609671799931675, 1.8671073999721557, 1.7499527999898419, 2.174811700009741, 1.913429499953054, 2.0699947000248358, 1.4834364000707865, 2.842900599935092, 1.6957036000676453, 1.718407499953173, 1.4087340000551194, 2.680621900013648, 2.012262100004591, 2.6289595999987796, 1.6224842000519857]",,293447,001,2022-11-10_22h25.28.254,intentional binding_tutorial 7,2022.2.2,59.79219818524606,
0.4,1000,exp,4,2,50,4,516.6619757999433,517.657782199909,517.657782199909,517.6741477999603,space,0.33859260007739067,518.4242258399725,518.7345538999652,518.7345538999652,518.7345538999652,150,51,"[11.332918500062078, 4.793035199982114, 5.323812499991618, 2.82929309993051, 3.8839784000301734, 2.8683482999913394, 4.829928799998015, 2.4719504999229684, 3.073013399960473, 4.6050263999495655, 5.946802399936132, 5.1894545999821275, 3.1047875999938697, 2.8646712000481784, 2.741741899983026, 4.040168400038965, 4.697298899991438, 6.321393099962734, 3.20761909999419, 3.6712367999134585, 3.2784732000436634, 3.1724946999456733, 2.236710699973628, 4.202336199930869, 2.6471764999441803, 2.410076200030744, 2.373349600005895, 3.0959480999736115, 2.261777800042182, 1.806649599922821, 1.690294999978505, 1.4203751999884844, 2.7231321000726894, 3.6055967999855056, 2.1748238999862224, 2.609657699940726, 1.8670950999949127, 1.7499408000148833, 2.174800700042397, 1.9134114000480622, 2.069983100052923, 1.4834245000965893, 2.8428881999570876, 1.695685900049284, 1.718396299984306, 1.4087219000793993, 2.680609899922274, 2.012250900035724, 2.628943599993363, 1.6224728000815958, 1.5104141000192612]","[11.332937400089577, 4.793040700023994, 5.32382819999475, 2.8293041000142694, 3.8839853000827134, 2.8683558999327943, 4.829940699972212, 2.471966499928385, 3.073025399935432, 4.605038299923763, 5.946814600029029, 5.18946619995404, 3.1047991000814363, 2.864683200023137, 2.741750300046988, 4.040180400013924, 4.697311699972488, 6.321404800051823, 3.207630299963057, 3.671248300001025, 3.278484100010246, 3.1725063999183476, 2.2367224000627175, 4.202348199905828, 2.6471883999183774, 2.4100881000049412, 2.3733610999770463, 3.0959599000634626, 2.261789000011049, 1.806661200011149, 1.6903073999565095, 1.4203872999642044, 2.723145200056024, 3.6056032999185845, 2.174859600025229, 2.609671799931675, 1.8671073999721557, 1.7499527999898419, 2.174811700009741, 1.913429499953054, 2.0699947000248358, 1.4834364000707865, 2.842900599935092, 1.6957036000676453, 1.718407499953173, 1.4087340000551194, 2.680621900013648, 2.012262100004591, 2.6289595999987796, 1.6224842000519857, 1.5104251999873668]",,293447,001,2022-11-10_22h25.28.254,intentional binding_tutorial 7,2022.2.2,59.79219818524606,
0.1,1000,exp,4,3,51,3,520.2341485999059,521.2406092999736,521.2406092999736,521.2406092999736,space,0.38111670000944287,521.7403203399851,522.0516883999808,522.0516883999808,522.0516883999808,100,52,"[11.332918500062078, 4.793035199982114, 5.323812499991618, 2.82929309993051, 3.8839784000301734, 2.8683482999913394, 4.829928799998015, 2.4719504999229684, 3.073013399960473, 4.6050263999495655, 5.946802399936132, 5.1894545999821275, 3.1047875999938697, 2.8646712000481784, 2.741741899983026, 4.040168400038965, 4.697298899991438, 6.321393099962734, 3.20761909999419, 3.6712367999134585, 3.2784732000436634, 3.1724946999456733, 2.236710699973628, 4.202336199930869, 2.6471764999441803, 2.410076200030744, 2.373349600005895, 3.0959480999736115, 2.261777800042182, 1.806649599922821, 1.690294999978505, 1.4203751999884844, 2.7231321000726894, 3.6055967999855056, 2.1748238999862224, 2.609657699940726, 1.8670950999949127, 1.7499408000148833, 2.174800700042397, 1.9134114000480622, 2.069983100052923, 1.4834245000965893, 2.8428881999570876, 1.695685900049284, 1.718396299984306, 1.4087219000793993, 2.680609899922274, 2.012250900035724, 2.628943599993363, 1.6224728000815958, 1.5104141000192612, 1.8664775000652298]","[11.332937400089577, 4.793040700023994, 5.32382819999475, 2.8293041000142694, 3.8839853000827134, 2.8683558999327943, 4.829940699972212, 2.471966499928385, 3.073025399935432, 4.605038299923763, 5.946814600029029, 5.18946619995404, 3.1047991000814363, 2.864683200023137, 2.741750300046988, 4.040180400013924, 4.697311699972488, 6.321404800051823, 3.207630299963057, 3.671248300001025, 3.278484100010246, 3.1725063999183476, 2.2367224000627175, 4.202348199905828, 2.6471883999183774, 2.4100881000049412, 2.3733610999770463, 3.0959599000634626, 2.261789000011049, 1.806661200011149, 1.6903073999565095, 1.4203872999642044, 2.723145200056024, 3.6056032999185845, 2.174859600025229, 2.609671799931675, 1.8671073999721557, 1.7499527999898419, 2.174811700009741, 1.913429499953054, 2.0699947000248358, 1.4834364000707865, 2.842900599935092, 1.6957036000676453, 1.718407499953173, 1.4087340000551194, 2.680621900013648, 2.012262100004591, 2.6289595999987796, 1.6224842000519857, 1.5104251999873668, 1.8664889000356197]",,293447,001,2022-11-10_22h25.28.254,intentional binding_tutorial 7,2022.2.2,59.79219818524606,
0.1,400,unexp,4,4,52,0,523.9057399999583,524.9068316000048,524.9068316000048,524.9068316000048,space,0.36916300002485514,525.4067224399885,525.7156102999579,525.7156102999579,525.7156102999579,200,53,"[11.332918500062078, 4.793035199982114, 5.323812499991618, 2.82929309993051, 3.8839784000301734, 2.8683482999913394, 4.829928799998015, 2.4719504999229684, 3.073013399960473, 4.6050263999495655, 5.946802399936132, 5.1894545999821275, 3.1047875999938697, 2.8646712000481784, 2.741741899983026, 4.040168400038965, 4.697298899991438, 6.321393099962734, 3.20761909999419, 3.6712367999134585, 3.2784732000436634, 3.1724946999456733, 2.236710699973628, 4.202336199930869, 2.6471764999441803, 2.410076200030744, 2.373349600005895, 3.0959480999736115, 2.261777800042182, 1.806649599922821, 1.690294999978505, 1.4203751999884844, 2.7231321000726894, 3.6055967999855056, 2.1748238999862224, 2.609657699940726, 1.8670950999949127, 1.7499408000148833, 2.174800700042397, 1.9134114000480622, 2.069983100052923, 1.4834245000965893, 2.8428881999570876, 1.695685900049284, 1.718396299984306, 1.4087219000793993, 2.680609899922274, 2.012250900035724, 2.628943599993363, 1.6224728000815958, 1.5104141000192612, 1.8664775000652298, 1.5438627999974415]","[11.332937400089577, 4.793040700023994, 5.32382819999475, 2.8293041000142694, 3.8839853000827134, 2.8683558999327943, 4.829940699972212, 2.471966499928385, 3.073025399935432, 4.605038299923763, 5.946814600029029, 5.18946619995404, 3.1047991000814363, 2.864683200023137, 2.741750300046988, 4.040180400013924, 4.697311699972488, 6.321404800051823, 3.207630299963057, 3.671248300001025, 3.278484100010246, 3.1725063999183476, 2.2367224000627175, 4.202348199905828, 2.6471883999183774, 2.4100881000049412, 2.3733610999770463, 3.0959599000634626, 2.261789000011049, 1.806661200011149, 1.6903073999565095, 1.4203872999642044, 2.723145200056024, 3.6056032999185845, 2.174859600025229, 2.609671799931675, 1.8671073999721557, 1.7499527999898419, 2.174811700009741, 1.913429499953054, 2.0699947000248358, 1.4834364000707865, 2.842900599935092, 1.6957036000676453, 1.718407499953173, 1.4087340000551194, 2.680621900013648, 2.012262100004591, 2.6289595999987796, 1.6224842000519857, 1.5104251999873668, 1.8664889000356197, 1.5438802998978645]",,293447,001,2022-11-10_22h25.28.254,intentional binding_tutorial 7,2022.2.2,59.79219818524606,
0.7,1000,exp,4,5,53,5,527.2513173999032,528.2567258999916,528.2567258999916,528.2567258999916,space,1.1518810000270605,530.1393666399642,530.4492837999715,530.4492837999715,530.4492837999715,600,54,"[11.332918500062078, 4.793035199982114, 5.323812499991618, 2.82929309993051, 3.8839784000301734, 2.8683482999913394, 4.829928799998015, 2.4719504999229684, 3.073013399960473, 4.6050263999495655, 5.946802399936132, 5.1894545999821275, 3.1047875999938697, 2.8646712000481784, 2.741741899983026, 4.040168400038965, 4.697298899991438, 6.321393099962734, 3.20761909999419, 3.6712367999134585, 3.2784732000436634, 3.1724946999456733, 2.236710699973628, 4.202336199930869, 2.6471764999441803, 2.410076200030744, 2.373349600005895, 3.0959480999736115, 2.261777800042182, 1.806649599922821, 1.690294999978505, 1.4203751999884844, 2.7231321000726894, 3.6055967999855056, 2.1748238999862224, 2.609657699940726, 1.8670950999949127, 1.7499408000148833, 2.174800700042397, 1.9134114000480622, 2.069983100052923, 1.4834245000965893, 2.8428881999570876, 1.695685900049284, 1.718396299984306, 1.4087219000793993, 2.680609899922274, 2.012250900035724, 2.628943599993363, 1.6224728000815958, 1.5104141000192612, 1.8664775000652298, 1.5438627999974415, 3.349773299996741]","[11.332937400089577, 4.793040700023994, 5.32382819999475, 2.8293041000142694, 3.8839853000827134, 2.8683558999327943, 4.829940699972212, 2.471966499928385, 3.073025399935432, 4.605038299923763, 5.946814600029029, 5.18946619995404, 3.1047991000814363, 2.864683200023137, 2.741750300046988, 4.040180400013924, 4.697311699972488, 6.321404800051823, 3.207630299963057, 3.671248300001025, 3.278484100010246, 3.1725063999183476, 2.2367224000627175, 4.202348199905828, 2.6471883999183774, 2.4100881000049412, 2.3733610999770463, 3.0959599000634626, 2.261789000011049, 1.806661200011149, 1.6903073999565095, 1.4203872999642044, 2.723145200056024, 3.6056032999185845, 2.174859600025229, 2.609671799931675, 1.8671073999721557, 1.7499527999898419, 2.174811700009741, 1.913429499953054, 2.0699947000248358, 1.4834364000707865, 2.842900599935092, 1.6957036000676453, 1.718407499953173, 1.4087340000551194, 2.680621900013648, 2.012262100004591, 2.6289595999987796, 1.6224842000519857, 1.5104251999873668, 1.8664889000356197, 1.5438802998978645, 3.34978669998236]",,293447,001,2022-11-10_22h25.28.254,intentional binding_tutorial 7,2022.2.2,59.79219818524606,
,,,,,,,533.7868176999036,534.7887824999634,534.7887824999634,534.7887824999634,,,,,,,,,,,,,,,,,,
